13579
1 0 1 0 0 0 0 0
0

PHOTO-RESEARCH-SpectraView
PR-703/PC
1095
20-Oct-91  19:14:45
-----------------------
192
Standard-Objec
n.a.
5 nm
1   
912   msec
390     730     2

Radiometric-Data
0
0
9.773e-002   watts/ster*m2 .    
2.697e+017   photons/ster*m2*sec .    

Photometric-Data
0
1.797e+001  fL .    
6.156e+001  Cd/m2 .    

Colorimetric-Data
2.689e+001  6.156e+001  1.924e+000  (X,Y,Z)
0.2975  0.6812  0.0213  (x,y,z)
0.1125  0.3863  (u,v)
0.1125  0.5795  (u',v')
2  (observer)

0 (CCT_NOT_APPLICABLE)
Spectral-Data
MEASURED
171 (data-points)
(nm)   w/sr*m2/nm

390    9.209e-006
392    7.032e-006
394    1.067e-005
396    5.842e-006
398    1.051e-005
400    1.280e-005
402    5.969e-006
404    8.196e-006
406    9.673e-006
408    5.884e-006
410    4.318e-006
412    4.888e-006
414    9.062e-006
416    3.395e-006
418    3.060e-006
420    6.061e-006
422    9.246e-006
424    9.682e-006
426    9.439e-006
428    8.371e-006
430    6.364e-006
432    1.228e-005
434    1.167e-005
436    2.228e-005
438    1.990e-005
440    1.574e-005
442    8.553e-006
444    1.257e-005
446    7.879e-006
448    7.000e-006
450    8.893e-006
452    8.631e-006
454    5.468e-006
456    7.444e-006
458    1.143e-005
460    1.055e-005
462    9.303e-006
464    1.386e-005
466    1.086e-005
468    1.049e-005
470    5.172e-006
472    7.302e-006
474    6.207e-006
476    5.236e-006
478    1.069e-005
480    9.684e-006
482    1.248e-005
484    1.228e-005
486    7.007e-006
488    8.627e-006
490    1.232e-005
492    1.101e-005
494    1.066e-005
496    1.509e-005
498    1.746e-005
500    1.146e-005
502    1.589e-005
504    2.064e-005
506    2.566e-005
508    3.662e-005
510    5.778e-005
512    8.944e-005
514    1.641e-004
516    2.468e-004
518    3.798e-004
520    5.051e-004
522    6.152e-004
524    7.797e-004
526    9.440e-004
528    1.082e-003
530    1.161e-003
532    1.183e-003
534    1.176e-003
536    1.164e-003
538    1.166e-003
540    1.251e-003
542    1.736e-003
544    3.625e-003
546    6.171e-003
548    6.378e-003
550    3.869e-003
552    1.913e-003
554    1.290e-003
556    1.073e-003
558    9.655e-004
560    9.537e-004
562    9.845e-004
564    9.941e-004
566    9.365e-004
568    8.182e-004
570    6.663e-004
572    5.739e-004
574    5.721e-004
576    6.452e-004
578    6.108e-004
580    3.863e-004
582    1.595e-004
584    6.406e-005
586    3.087e-005
588    1.988e-005
590    1.703e-005
592    9.143e-006
594    1.461e-005
596    1.278e-005
598    1.245e-005
600    1.559e-005
602    6.329e-006
604    1.305e-005
606    1.145e-005
608    7.435e-006
610    6.482e-006
612    1.496e-005
614    1.203e-005
616    1.289e-005
618    1.681e-005
620    1.373e-005
622    1.277e-005
624    1.290e-005
626    6.492e-006
628    5.338e-006
630    8.568e-006
632    7.361e-006
634    5.438e-006
636    8.033e-006
638    8.986e-006
640    4.707e-006
642    9.307e-006
644    8.272e-006
646    1.132e-005
648    9.173e-006
650    8.019e-006
652    9.889e-006
654    1.824e-005
656    7.331e-006
658    1.150e-005
660    1.531e-005
662    1.242e-005
664    1.109e-005
666    9.062e-006
668    8.525e-006
670    4.941e-006
672    5.021e-006
674    1.270e-005
676    5.185e-006
678    5.435e-006
680    1.734e-005
682    5.557e-006
684    5.720e-006
686    5.924e-006
688    6.117e-006
690    6.373e-006
692    1.304e-005
694    1.972e-005
696    8.463e-006
698    1.289e-005
700    1.898e-005
702    3.507e-005
704    1.403e-005
706    8.971e-006
708    9.288e-006
710    9.621e-006
712    9.955e-006
714    3.317e-005
716    1.061e-005
718    1.097e-005
720    3.651e-005
722    1.168e-005
724    2.089e-005
726    1.240e-005
728    1.274e-005
730    1.313e-005

