13579
1 0 1 0 0 0 0 0
0

PHOTO-RESEARCH-SpectraView
PR-703/PC
1095
20-Oct-91  19:14:05
-----------------------
191
Standard-Objec
n.a.
5 nm
1   
11089 msec
390     730     2

Radiometric-Data
0
0
5.902e-002   watts/ster*m2 .    
1.885e+017   photons/ster*m2*sec .    

Photometric-Data
0
3.122e+000  fL .    
1.070e+001  Cd/m2 .    

Colorimetric-Data
1.986e+001  1.070e+001  7.554e-001  (X,Y,Z)
0.6343  0.3416  0.0241  (x,y,z)
0.4352  0.3515  (u,v)
0.4352  0.5273  (u',v')
2  (observer)

0 (CCT_NOT_APPLICABLE)
Spectral-Data
MEASURED
171 (data-points)
(nm)   w/sr*m2/nm

390    6.752e-007
392    6.094e-007
394    9.251e-007
396    5.063e-007
398    4.400e-007
400    3.982e-007
402    5.173e-007
404    4.692e-007
406    3.404e-007
408    3.318e-007
410    3.873e-007
412    6.710e-007
414    2.929e-007
416    6.133e-007
418    1.082e-006
420    2.003e-006
422    2.951e-006
424    4.090e-006
426    5.448e-006
428    5.208e-006
430    4.881e-006
432    6.289e-006
434    8.906e-006
436    1.322e-005
438    1.281e-005
440    7.752e-006
442    5.312e-006
444    5.288e-006
446    5.131e-006
448    5.417e-006
450    5.275e-006
452    5.411e-006
454    5.337e-006
456    6.259e-006
458    6.740e-006
460    7.756e-006
462    8.022e-006
464    9.551e-006
466    9.927e-006
468    1.033e-005
470    1.155e-005
472    1.198e-005
474    1.243e-005
476    1.385e-005
478    1.536e-005
480    1.588e-005
482    1.842e-005
484    2.076e-005
486    2.482e-005
488    3.271e-005
490    3.981e-005
492    4.173e-005
494    4.185e-005
496    4.156e-005
498    3.877e-005
500    3.582e-005
502    3.528e-005
504    3.426e-005
506    3.218e-005
508    2.860e-005
510    2.614e-005
512    2.468e-005
514    2.262e-005
516    2.096e-005
518    1.991e-005
520    1.764e-005
522    1.555e-005
524    1.358e-005
526    1.278e-005
528    1.282e-005
530    1.192e-005
532    1.071e-005
534    1.083e-005
536    1.042e-005
538    9.978e-006
540    1.130e-005
542    1.362e-005
544    2.695e-005
546    4.428e-005
548    4.680e-005
550    2.900e-005
552    1.618e-005
554    1.236e-005
556    1.118e-005
558    1.175e-005
560    1.191e-005
562    1.314e-005
564    1.462e-005
566    1.544e-005
568    1.676e-005
570    1.935e-005
572    2.480e-005
574    4.070e-005
576    8.230e-005
578    1.305e-004
580    1.575e-004
582    1.465e-004
584    1.377e-004
586    1.521e-004
588    1.811e-004
590    2.084e-004
592    2.416e-004
594    2.865e-004
596    3.505e-004
598    4.225e-004
600    4.547e-004
602    4.293e-004
604    3.941e-004
606    4.178e-004
608    4.624e-004
610    4.698e-004
612    4.554e-004
614    4.886e-004
616    5.529e-004
618    5.783e-004
620    5.993e-004
622    6.645e-004
624    7.717e-004
626    8.017e-004
628    7.609e-004
630    6.959e-004
632    6.702e-004
634    6.251e-004
636    6.266e-004
638    6.480e-004
640    6.612e-004
642    6.470e-004
644    6.365e-004
646    6.239e-004
648    6.312e-004
650    5.916e-004
652    5.125e-004
654    4.943e-004
656    5.686e-004
658    6.102e-004
660    5.992e-004
662    5.477e-004
664    5.544e-004
666    5.585e-004
668    5.158e-004
670    4.592e-004
672    4.612e-004
674    4.641e-004
676    4.140e-004
678    3.561e-004
680    3.126e-004
682    3.262e-004
684    3.409e-004
686    3.092e-004
688    2.524e-004
690    2.177e-004
692    1.972e-004
694    1.782e-004
696    1.727e-004
698    1.691e-004
700    1.458e-004
702    1.063e-004
704    7.904e-005
706    6.472e-005
708    5.342e-005
710    4.338e-005
712    3.708e-005
714    3.196e-005
716    2.869e-005
718    2.689e-005
720    2.060e-005
722    1.974e-005
724    1.740e-005
726    1.534e-005
728    1.360e-005
730    1.202e-005

