From ir528@sdcc3.UCSD.EDU Tue Jul 13 18:44:01 1993
Date: Tue, 13 Jul 93 18:45:31 PDT
From: ir528@sdcc3.UCSD.EDU (Andy Stockman)
To: brian@white.Stanford.EDU
Subject: Re:  thank you, and ...
Content-Length: 8559
X-Lines: 148
Status: RO

Dear Brian,

I hope that you find the papers of some use.  I will send the first
paper by mail tomorrow.  Appended to this e-mail is an ascii version
of Appendix A and Table A of the second paper.

Best wishes,
Andrew Stockman

********Appendix A******

Appendix A and Table A from Stockman, MacLeod and Johnson  JOSA A (in press)

APPENDIX A

Proposed 2  cone fundamentals based on the Stiles-Burch1955 2  CMFs or
on the CIE1964 10 CMFs

Table A  Columns 2, 3 and 4: logarithms of proposed S-cone (S), M-cone (M)
and L-cone (L) fundamentals based on the Stiles-Burch 1955 R, G and B 2-deg
color matching functions (Wyszecki & Stiles (1982), Color Science, Table
I(5.5.3)) according to the following equations:

S = 0.000000R + 0.016500G + 0.999989B    (lambda <=525nm)
M = 0.022882R + 0.940534G + 0.076827B  
L = 0.214808R + 0.751035G + 0.045156B 

	The S-cone sensitivities have been extended at lambda  > 525 nm by
using the following function:   logS = 10,402.1/lambda - 21.549  (where
lambda is the wavelength in nm).
	By adding columns 2 and 3 with weights equal to 0.68273 for L and
0.35235 for M a reasonable approximation to the shape of the CIE modified
Vlambda function (VM (lambda)) can be obtained.

	Columns 5, 6, and 7: logarithms of proposed cone sensitivities based
on the X10, Y10 and Z10  10-deg  CMFs of the CIE 1964 supplementary standard
observer (Wyszecki & Stiles (1982), Color Science, Table I(3.3.2)), derived
from the following transformation for large field cone sensitivities, and
adapted for small field application through the transformations described 
below (see also Section I).

S = 0.040557X10 - 0.019683Y10 + 0.486195Z10    (lambda <=520nm)
M =-0.431117X10 + 1.206922Y10 + 0.090020Z10  
L = 0.236157X10 + 0.826427Y10 - 0.045710Z10 

	The S-cone sensitivities have been extended at lambda  > 520 nm by
using the following function:   logS = 10,402.1/lambda - 21.7185  (where
lambda is the wavelength in nm).
	The 2-deg cone fundamentals in Columns 5, 6 and 7 were calculated
using the above equations by (1) converting the above 10-deg cone funda-
mentals to action spectra assuming 1.28 times the (open pupil) van Norren
& Vos lens template (Vision Res. 14, 1237-1244 (1974)), 0.28 times the
Wyszecki & Stiles macular template (Wyszecki & Stiles (1982), Color Science, 
Table 2(2.4.6)), and a photopigment density of 0.30; and then (2) converting
the action spectra to 2-deg cone fundamentals assuming the same lens
densities, 0.70 times the macular template and a photopigment density of
0.40 (see text for details).  The Wyszecki & Stiles macular template was 
extended beyond 400 nm by assuming densities of 0.0425 at 395 nm and zero
at 390 nm.  
	Since they are based on the CIE 1964 observer instead of the
Stiles-Burch 1955 observer, the 2-deg cone fundamentals tabulated in
Columns 5, 6 and 7 are consistent with a slightly higher lens density than
those tabulated in Columns 2, 3 and 4 (see text).
	The tabulated M- and L-cone sensitivities can be extended into the
infrared, where self-screening is negligible, by using the above linear
equations in X10, Y10 and Y10 multiplied by wavelength-independent scaling
factors of 1.103 for M and 1.102 for L.
	All coefficients given above have been scaled so that the interpolated peak cone 
sensitivities are equal to 1. 

TABLE A
 ---------------------------------------------------------------------
 Wave-   |  2-deg cone fundamentals    |  2-deg cone fundamentals    |
 length  |  based on the Stiles-Burch  |  based on the CIE (1964)    |
	 |  2-deg CMFs (log10)         |  10-deg CMFs (log10)        |
	 |-----------------------------|-----------------------------|
 (nm)    |  L-cone |  M-cone |  S-cone |  L-cone |  M-cone |  S-cone |
	 |         |         |         |         |         |         |
390.0000,  -3.2197,  -3.2606,  -1.9156,  -3.5037,  -3.5967,  -2.1038
395.0000,  -2.7931,  -2.8206,  -1.5073,  -3.0445,  -3.1245,  -1.6412
400.0000,  -2.4874,  -2.5269,  -1.2053,  -2.6515,  -2.7147,  -1.2413
405.0000,  -2.1744,  -2.1953,  -0.8810,  -2.3204,  -2.3631,  -0.8994
410.0000,  -1.9401,  -1.9428,  -0.6433,  -2.0576,  -2.0726,  -0.6216
415.0000,  -1.7991,  -1.7768,  -0.4452,  -1.8795,  -1.8560,  -0.4200
420.0000,  -1.6526,  -1.5888,  -0.2809,  -1.7576,  -1.6883,  -0.2777
425.0000,  -1.5789,  -1.4695,  -0.1640,  -1.6575,  -1.5418,  -0.1740
430.0000,  -1.5159,  -1.3623,  -0.0992,  -1.5695,  -1.4113,  -0.0953
435.0000,  -1.4531,  -1.2650,  -0.0485,  -1.4872,  -1.2951,  -0.0370
440.0000,  -1.3853,  -1.1708,  -0.0160,  -1.4161,  -1.1968,  -0.0058
445.0000,  -1.3411,  -1.1084,  -0.0008,  -1.3620,  -1.1209,  -0.0017
450.0000,  -1.3014,  -1.0537,  -0.0367,  -1.3116,  -1.0561,  -0.0222
455.0000,  -1.2452,  -0.9877,  -0.0832,  -1.2585,  -0.9962,  -0.0535
460.0000,  -1.1669,  -0.9035,  -0.1042,  -1.1860,  -0.9220,  -0.0902
465.0000,  -1.0791,  -0.8188,  -0.1745,  -1.1045,  -0.8404,  -0.1272
470.0000,  -0.9857,  -0.7332,  -0.2122,  -1.0138,  -0.7533,  -0.1863
475.0000,  -0.9029,  -0.6599,  -0.3084,  -0.9238,  -0.6733,  -0.2767
480.0000,  -0.8362,  -0.6047,  -0.4366,  -0.8613,  -0.6239,  -0.4042
485.0000,  -0.7770,  -0.5562,  -0.5671,  -0.7910,  -0.5674,  -0.5402
490.0000,  -0.6994,  -0.4916,  -0.6959,  -0.7267,  -0.5170,  -0.6791
495.0000,  -0.6048,  -0.4137,  -0.8125,  -0.6342,  -0.4405,  -0.8046
500.0000,  -0.5087,  -0.3345,  -0.9371,  -0.5277,  -0.3488,  -0.9243
505.0000,  -0.4114,  -0.2515,  -1.0627,  -0.4272,  -0.2633,  -1.0485
510.0000,  -0.3262,  -0.1819,  -1.2088,  -0.3380,  -0.1892,  -1.2068
515.0000,  -0.2504,  -0.1205,  -1.3755,  -0.2622,  -0.1284,  -1.3635
520.0000,  -0.1852,  -0.0684,  -1.5477,  -0.1976,  -0.0793,  -1.5313
525.0000,  -0.1354,  -0.0336,  -1.7360,  -0.1484,  -0.0459,  -1.7112
530.0000,  -0.0974,  -0.0112,  -1.9224,  -0.1101,  -0.0239,  -1.8918
535.0000,  -0.0722,  -0.0015,  -2.1058,  -0.0773,  -0.0069,  -2.0710
540.0000,  -0.0560,  -0.0011,  -2.2859,  -0.0542,  -0.0002,  -2.2510
545.0000,  -0.0385,  -0.0001,  -2.4626,  -0.0382,  -0.0022,  -2.4277
550.0000,  -0.0233,  -0.0034,  -2.6361,  -0.0261,  -0.0099,  -2.6012
555.0000,  -0.0152,  -0.0174,  -2.8065,  -0.0142,  -0.0205,  -2.7716
560.0000,  -0.0143,  -0.0414,  -2.9738,  -0.0054,  -0.0369,  -2.9389
565.0000,  -0.0101,  -0.0652,  -3.1382,  -0.0008,  -0.0617,  -3.1033
570.0000,  -0.0013,  -0.0872,  -3.2997,  -0.0005,  -0.0952,  -3.2648
575.0000,  -0.0023,  -0.1262,  -3.4584,  -0.0057,  -0.1389,  -3.4235
580.0000,  -0.0108,  -0.1792,  -3.6143,  -0.0140,  -0.1906,  -3.5794
585.0000,  -0.0189,  -0.2321,  -3.7676,  -0.0219,  -0.2469,  -3.7327
590.0000,  -0.0307,  -0.2933,  -3.9183,  -0.0337,  -0.3120,  -3.8834
595.0000,  -0.0495,  -0.3708,  -4.0665,  -0.0525,  -0.3882,  -4.0316
600.0000,  -0.0744,  -0.4582,  -4.2122,  -0.0777,  -0.4748,  -4.1773
605.0000,  -0.1055,  -0.5529,  -4.3554,  -0.1092,  -0.5711,  -4.3205
610.0000,  -0.1443,  -0.6598,  -4.4964,  -0.1478,  -0.6771,  -4.4615
615.0000,  -0.1914,  -0.7792,  -4.6350,  -0.1946,  -0.7924,  -4.6001
620.0000,  -0.2472,  -0.9050,  -4.7714,  -0.2491,  -0.9139,  -4.7365
625.0000,  -0.3123,  -1.0370,  -4.9056,  -0.3101,  -1.0334,  -4.8707
630.0000,  -0.3877,  -1.1789,  -5.0377,  -0.3815,  -1.1594,  -5.0028
635.0000,  -0.4723,  -1.3295,  -5.1677,  -0.4688,  -1.3073,  -5.1328
640.0000,  -0.5641,  -1.4825,  -5.2957,  -0.5663,  -1.4670,  -5.2608
645.0000,  -0.6645,  -1.6355,  -5.4217,  -0.6690,  -1.6345,  -5.3868
650.0000,  -0.7761,  -1.7917,  -5.5458,  -0.7795,  -1.8047,  -5.5109
655.0000,  -0.8990,  -1.9512,  -5.6679,  -0.8992,  -1.9615,  -5.6330
660.0000,  -1.0304,  -2.1141,  -5.7882,  -1.0267,  -2.1137,  -5.7533
665.0000,  -1.1681,  -2.2785,  -5.9067,  -1.1609,  -2.2722,  -5.8718
670.0000,  -1.3099,  -2.4412,  -6.0235,  -1.3016,  -2.4327,  -5.9886
675.0000,  -1.4536,  -2.5996,  -6.1385,  -1.4490,  -2.5949,  -6.1036
680.0000,  -1.5994,  -2.7550,  -6.2518,  -1.6010,  -2.7574,  -6.2169
685.0000,  -1.7486,  -2.9125,  -6.3635,  -1.7556,  -2.9185,  -6.3285
690.0000,  -1.9024,  -3.0719,  -6.4735,  -1.9126,  -3.0793,  -6.4386
695.0000,  -2.0647,  -3.2353,  -6.5819,  -2.0712,  -3.2415,  -6.5470
700.0000,  -2.2334,  -3.4003,  -6.6889,  -2.2312,  -3.4031,  -6.6539
705.0000,  -2.4006,  -3.5629,  -6.7942,  -2.3925,  -3.5636,  -6.7593
710.0000,  -2.5580,  -3.7191,  -6.8982,  -2.5540,  -3.7226,  -6.8632
715.0000,  -2.7084,  -3.8690,  -7.0006,  -2.7145,  -3.8796,  -6.9657
720.0000,  -2.8674,  -4.0206,  -7.1016,  -2.8744,  -4.0350,  -7.0667
725.0000,  -3.0243,  -4.1705,  -7.2013,  -3.0338,  -4.1890,  -7.1664
730.0000,  -3.1791,  -4.3186,  -7.2995,  -3.1922,  -4.3414,  -7.2646


