0
1.771e-002   watts/ster*m2 .    
4.235e+016   photons/ster*m2*sec .    

Photometric-Data
0
5.248e-001  fL .    
1.798e+000  Cd/m2 .    

Colorimetric-Data
3.173e+000  1.798e+000  1.371e+001  (X,Y,Z)
0.1698  0.0962  0.7339  (x,y,z)
0.1780  0.1514  (u,v)
0.1780  0.2270  (u',v')
2  (observer)

0 (CCT_NOT_APPLICABLE)
Spectral-Data
MEASURED
171 (data-points)
(nm)   w/sr*m2/nm

390    1.138e-006
392    1.619e-006
394    7.433e-007
396    1.507e-006
398    1.494e-006
400    1.512e-006
402    2.106e-006
404    3.137e-006
406    3.415e-006
408    4.258e-006
410    5.221e-006
412    7.312e-006
414    1.093e-005
416    1.926e-005
418    2.995e-005
420    4.472e-005
422    7.172e-005
424    1.015e-004
426    1.283e-004
428    1.370e-004
430    1.410e-004
432    1.523e-004
434    2.118e-004
436    2.832e-004
438    2.688e-004
440    1.910e-004
442    1.626e-004
444    1.698e-004
446    1.927e-004
448    2.088e-004
450    2.143e-004
452    2.186e-004
454    2.325e-004
456    2.449e-004
458    2.481e-004
460    2.489e-004
462    2.609e-004
464    2.670e-004
466    2.600e-004
468    2.490e-004
470    2.458e-004
472    2.419e-004
474    2.334e-004
476    2.213e-004
478    2.103e-004
480    1.987e-004
482    1.832e-004
484    1.739e-004
486    1.740e-004
488    1.859e-004
490    1.885e-004
492    1.648e-004
494    1.357e-004
496    1.033e-004
498    6.900e-005
500    4.382e-005
502    2.580e-005
504    1.585e-005
506    1.056e-005
508    7.148e-006
510    5.655e-006
512    4.936e-006
514    4.113e-006
516    4.416e-006
518    4.908e-006
520    5.537e-006
522    5.915e-006
524    7.196e-006
526    8.466e-006
528    9.268e-006
530    1.014e-005
532    1.040e-005
534    1.090e-005
536    1.155e-005
538    1.238e-005
540    1.411e-005
542    1.748e-005
544    2.581e-005
546    3.317e-005
548    3.005e-005
550    2.054e-005
552    1.531e-005
554    1.354e-005
556    1.332e-005
558    1.331e-005
560    1.382e-005
562    1.439e-005
564    1.497e-005
566    1.540e-005
568    1.525e-005
570    1.497e-005
572    1.466e-005
574    1.519e-005
576    1.633e-005
578    1.665e-005
580    1.559e-005
582    1.417e-005
584    1.401e-005
586    1.375e-005
588    1.370e-005
590    1.394e-005
592    1.387e-005
594    1.373e-005
596    1.413e-005
598    1.421e-005
600    1.361e-005
602    1.328e-005
604    1.271e-005
606    1.275e-005
608    1.400e-005
610    1.677e-005
612    1.756e-005
614    1.625e-005
616    1.311e-005
618    1.208e-005
620    1.154e-005
622    1.147e-005
624    1.184e-005
626    1.155e-005
628    1.091e-005
630    1.062e-005
632    1.014e-005
634    9.143e-006
636    8.722e-006
638    8.557e-006
640    8.102e-006
642    7.703e-006
644    8.345e-006
646    7.656e-006
648    7.650e-006
650    7.545e-006
652    6.749e-006
654    6.396e-006
656    5.955e-006
658    5.799e-006
660    5.746e-006
662    6.152e-006
664    5.902e-006
666    5.768e-006
668    5.323e-006
670    4.873e-006
672    4.728e-006
674    4.226e-006
676    4.002e-006
678    3.605e-006
680    2.929e-006
682    3.569e-006
684    3.813e-006
686    3.135e-006
688    2.942e-006
690    2.218e-006
692    2.967e-006
694    2.359e-006
696    8.628e-007
698    1.560e-006
700    1.398e-006
702    1.193e-006
704    2.108e-006
706    1.397e-006
708    1.624e-006
710    1.304e-006
712    1.155e-006
714    7.902e-007
716    4.681e-007
718    8.282e-007
720    1.254e-006
722    1.023e-006
724    7.909e-007
726    9.980e-007
728    1.946e-006
730    8.815e-007

