0
3.383e-002   watts/ster*m2 .    
9.349e+016   photons/ster*m2*sec .    

Photometric-Data
0
6.069e+000  fL .    
2.079e+001  Cd/m2 .    

Colorimetric-Data
9.583e+000  2.079e+001  8.361e-001  (X,Y,Z)
0.3070  0.6662  0.0268  (x,y,z)
0.1183  0.3851  (u,v)
0.1183  0.5776  (u',v')
2  (observer)

0 (CCT_NOT_APPLICABLE)
Spectral-Data
MEASURED
171 (data-points)
(nm)   w/sr*m2/nm

390    1.619e-006
392    1.461e-006
394    1.323e-006
396    1.170e-006
398    1.619e-006
400    1.126e-006
402    8.904e-007
404    8.515e-007
406    1.021e-006
408    1.164e-006
410    1.390e-006
412    1.744e-006
414    2.585e-006
416    7.271e-007
418    6.357e-007
420    1.999e-006
422    2.155e-006
424    3.583e-006
426    4.160e-006
428    3.530e-006
430    2.608e-006
432    4.178e-006
434    1.126e-005
436    1.571e-005
438    1.338e-005
440    5.629e-006
442    3.035e-006
444    4.503e-006
446    4.476e-006
448    4.789e-006
450    5.693e-006
452    3.883e-006
454    4.653e-006
456    6.158e-006
458    4.920e-006
460    5.642e-006
462    5.379e-006
464    6.072e-006
466    4.964e-006
468    4.265e-006
470    4.904e-006
472    4.482e-006
474    5.081e-006
476    6.223e-006
478    5.080e-006
480    4.781e-006
482    4.452e-006
484    5.017e-006
486    5.540e-006
488    6.355e-006
490    6.436e-006
492    5.679e-006
494    6.011e-006
496    5.833e-006
498    6.144e-006
500    6.809e-006
502    7.901e-006
504    8.778e-006
506    9.641e-006
508    1.423e-005
510    2.205e-005
512    3.740e-005
514    6.568e-005
516    1.017e-004
518    1.537e-004
520    2.135e-004
522    2.683e-004
524    3.433e-004
526    4.208e-004
528    4.786e-004
530    5.122e-004
532    5.233e-004
534    5.252e-004
536    5.177e-004
538    5.198e-004
540    5.455e-004
542    6.318e-004
544    9.421e-004
546    1.335e-003
548    1.331e-003
550    9.109e-004
552    5.958e-004
554    4.877e-004
556    4.399e-004
558    4.132e-004
560    4.117e-004
562    4.199e-004
564    4.228e-004
566    4.106e-004
568    3.808e-004
570    3.333e-004
572    2.962e-004
574    2.720e-004
576    2.549e-004
578    2.184e-004
580    1.417e-004
582    7.158e-005
584    4.009e-005
586    2.666e-005
588    2.046e-005
590    1.719e-005
592    1.662e-005
594    1.685e-005
596    1.491e-005
598    1.666e-005
600    1.629e-005
602    1.600e-005
604    1.681e-005
606    1.459e-005
608    1.453e-005
610    1.935e-005
612    1.861e-005
614    1.858e-005
616    1.384e-005
618    1.295e-005
620    1.304e-005
622    1.178e-005
624    1.131e-005
626    1.122e-005
628    1.179e-005
630    1.117e-005
632    1.015e-005
634    1.020e-005
636    8.752e-006
638    9.480e-006
640    9.642e-006
642    9.014e-006
644    9.802e-006
646    7.758e-006
648    7.919e-006
650    9.145e-006
652    6.498e-006
654    7.303e-006
656    4.681e-006
658    5.298e-006
660    7.564e-006
662    4.443e-006
664    3.727e-006
666    6.001e-006
668    7.384e-006
670    6.105e-006
672    5.021e-006
674    4.776e-006
676    2.161e-006
678    4.408e-006
680    5.327e-006
682    3.413e-006
684    4.186e-006
686    4.410e-006
688    4.267e-006
690    4.698e-006
692    3.715e-006
694    4.533e-006
696    2.262e-006
698    3.229e-006
700    3.596e-006
702    1.934e-006
704    4.283e-006
706    3.212e-006
708    4.791e-006
710    1.999e-006
712    3.463e-006
714    2.282e-006
716    2.205e-006
718    7.150e-006
720    2.552e-006
722    2.426e-006
724    2.496e-006
726    2.577e-006
728    4.065e-006
730    3.441e-006

