0
4.110e-002   watts/ster*m2 .    
1.310e+017   photons/ster*m2*sec .    

Photometric-Data
0
2.238e+000  fL .    
7.670e+000  Cd/m2 .    

Colorimetric-Data
1.388e+001  7.670e+000  6.024e-001  (X,Y,Z)
0.6266  0.3462  0.0272  (x,y,z)
0.4247  0.3520  (u,v)
0.4247  0.5280  (u',v')
2  (observer)

0 (CCT_NOT_APPLICABLE)
Spectral-Data
MEASURED
171 (data-points)
(nm)   w/sr*m2/nm

390    5.113e-007
392    3.904e-007
394    1.071e-006
396    7.942e-007
398    2.819e-007
400    6.466e-007
402    6.628e-007
404    1.374e-006
406    1.463e-006
408    9.802e-007
410    4.284e-007
412    5.068e-007
414    3.753e-007
416    4.966e-007
418    1.176e-006
420    1.799e-006
422    2.114e-006
424    3.267e-006
426    3.636e-006
428    3.988e-006
430    3.732e-006
432    5.368e-006
434    1.151e-005
436    1.425e-005
438    1.127e-005
440    5.736e-006
442    4.271e-006
444    4.298e-006
446    4.494e-006
448    4.409e-006
450    5.059e-006
452    4.825e-006
454    4.966e-006
456    5.670e-006
458    5.871e-006
460    5.935e-006
462    6.316e-006
464    7.074e-006
466    7.462e-006
468    8.104e-006
470    8.592e-006
472    9.336e-006
474    1.017e-005
476    1.073e-005
478    1.173e-005
480    1.275e-005
482    1.450e-005
484    1.626e-005
486    1.892e-005
488    2.263e-005
490    2.565e-005
492    2.650e-005
494    2.683e-005
496    2.722e-005
498    2.589e-005
500    2.449e-005
502    2.395e-005
504    2.323e-005
506    2.165e-005
508    2.012e-005
510    1.932e-005
512    1.914e-005
514    1.883e-005
516    1.831e-005
518    1.781e-005
520    1.606e-005
522    1.489e-005
524    1.374e-005
526    1.300e-005
528    1.269e-005
530    1.238e-005
532    1.229e-005
534    1.220e-005
536    1.217e-005
538    1.273e-005
540    1.451e-005
542    1.791e-005
544    2.689e-005
546    3.509e-005
548    3.233e-005
550    2.249e-005
552    1.692e-005
554    1.533e-005
556    1.529e-005
558    1.549e-005
560    1.642e-005
562    1.801e-005
564    1.895e-005
566    1.979e-005
568    2.055e-005
570    2.257e-005
572    2.561e-005
574    3.385e-005
576    5.304e-005
578    7.420e-005
580    8.875e-005
582    9.619e-005
584    1.061e-004
586    1.258e-004
588    1.496e-004
590    1.703e-004
592    1.925e-004
594    2.191e-004
596    2.544e-004
598    2.931e-004
600    3.088e-004
602    2.934e-004
604    2.736e-004
606    2.909e-004
608    3.166e-004
610    3.224e-004
612    3.219e-004
614    3.490e-004
616    3.913e-004
618    4.060e-004
620    4.219e-004
622    4.560e-004
624    5.023e-004
626    5.086e-004
628    4.966e-004
630    4.833e-004
632    4.670e-004
634    4.348e-004
636    4.344e-004
638    4.467e-004
640    4.498e-004
642    4.394e-004
644    4.346e-004
646    4.311e-004
648    4.347e-004
650    4.004e-004
652    3.481e-004
654    3.331e-004
656    3.637e-004
658    3.842e-004
660    3.869e-004
662    3.741e-004
664    3.779e-004
666    3.774e-004
668    3.452e-004
670    3.113e-004
672    3.155e-004
674    3.166e-004
676    2.847e-004
678    2.480e-004
680    2.187e-004
682    2.205e-004
684    2.273e-004
686    2.070e-004
688    1.745e-004
690    1.498e-004
692    1.351e-004
694    1.250e-004
696    1.247e-004
698    1.247e-004
700    1.094e-004
702    8.209e-005
704    6.191e-005
706    4.943e-005
708    4.217e-005
710    3.687e-005
712    3.166e-005
714    2.640e-005
716    2.277e-005
718    2.080e-005
720    1.941e-005
722    1.945e-005
724    1.797e-005
726    1.603e-005
728    1.546e-005
730    1.226e-005

