0
4.115e-002   watts/ster*m2 .    
1.313e+017   photons/ster*m2*sec .    

Photometric-Data
0
2.231e+000  fL .    
7.642e+000  Cd/m2 .    

Colorimetric-Data
1.385e+001  7.642e+000  5.955e-001  (X,Y,Z)
0.6270  0.3460  0.0270  (x,y,z)
0.4252  0.3520  (u,v)
0.4252  0.5280  (u',v')
2  (observer)

0 (CCT_NOT_APPLICABLE)
Spectral-Data
MEASURED
171 (data-points)
(nm)   w/sr*m2/nm

390    5.223e-007
392    8.658e-007
394    3.532e-007
396    3.124e-007
398    7.335e-007
400    7.831e-007
402    9.425e-007
404    1.437e-006
406    1.244e-006
408    5.388e-007
410    3.643e-007
412    6.647e-007
414    6.984e-007
416    1.018e-006
418    1.083e-006
420    1.787e-006
422    2.082e-006
424    2.727e-006
426    3.110e-006
428    3.520e-006
430    3.806e-006
432    5.083e-006
434    1.101e-005
436    1.409e-005
438    1.105e-005
440    5.529e-006
442    4.529e-006
444    4.193e-006
446    4.330e-006
448    4.465e-006
450    5.183e-006
452    5.088e-006
454    5.406e-006
456    5.304e-006
458    5.492e-006
460    5.982e-006
462    6.313e-006
464    7.036e-006
466    7.460e-006
468    7.916e-006
470    8.355e-006
472    8.985e-006
474    9.380e-006
476    1.070e-005
478    1.167e-005
480    1.282e-005
482    1.398e-005
484    1.586e-005
486    1.867e-005
488    2.305e-005
490    2.583e-005
492    2.668e-005
494    2.707e-005
496    2.732e-005
498    2.669e-005
500    2.510e-005
502    2.447e-005
504    2.357e-005
506    2.165e-005
508    1.976e-005
510    1.912e-005
512    1.920e-005
514    1.861e-005
516    1.828e-005
518    1.745e-005
520    1.609e-005
522    1.478e-005
524    1.352e-005
526    1.307e-005
528    1.336e-005
530    1.280e-005
532    1.217e-005
534    1.218e-005
536    1.213e-005
538    1.293e-005
540    1.478e-005
542    1.777e-005
544    2.696e-005
546    3.530e-005
548    3.237e-005
550    2.238e-005
552    1.689e-005
554    1.529e-005
556    1.516e-005
558    1.525e-005
560    1.595e-005
562    1.738e-005
564    1.866e-005
566    1.997e-005
568    2.090e-005
570    2.284e-005
572    2.544e-005
574    3.349e-005
576    5.158e-005
578    7.227e-005
580    8.659e-005
582    9.345e-005
584    1.038e-004
586    1.233e-004
588    1.471e-004
590    1.676e-004
592    1.905e-004
594    2.172e-004
596    2.531e-004
598    2.924e-004
600    3.087e-004
602    2.932e-004
604    2.742e-004
606    2.906e-004
608    3.163e-004
610    3.217e-004
612    3.206e-004
614    3.466e-004
616    3.895e-004
618    4.039e-004
620    4.200e-004
622    4.552e-004
624    5.015e-004
626    5.086e-004
628    4.970e-004
630    4.847e-004
632    4.687e-004
634    4.361e-004
636    4.359e-004
638    4.486e-004
640    4.516e-004
642    4.410e-004
644    4.364e-004
646    4.326e-004
648    4.371e-004
650    4.026e-004
652    3.502e-004
654    3.349e-004
656    3.657e-004
658    3.859e-004
660    3.888e-004
662    3.769e-004
664    3.799e-004
666    3.801e-004
668    3.471e-004
670    3.131e-004
672    3.164e-004
674    3.191e-004
676    2.866e-004
678    2.487e-004
680    2.202e-004
682    2.223e-004
684    2.294e-004
686    2.086e-004
688    1.768e-004
690    1.509e-004
692    1.372e-004
694    1.260e-004
696    1.272e-004
698    1.256e-004
700    1.096e-004
702    8.299e-005
704    6.181e-005
706    5.025e-005
708    4.173e-005
710    3.653e-005
712    3.089e-005
714    2.768e-005
716    2.361e-005
718    2.286e-005
720    2.022e-005
722    2.041e-005
724    1.912e-005
726    1.644e-005
728    1.484e-005
730    1.082e-005

