0
8.499e-002   watts/ster*m2 .    
2.450e+017   photons/ster*m2*sec .    

Photometric-Data
0
7.986e+000  fL .    
2.736e+001  Cd/m2 .    

Colorimetric-Data
2.409e+001  2.736e+001  1.407e+001  (X,Y,Z)
0.3677  0.4176  0.2147  (x,y,z)
0.2021  0.3444  (u,v)
0.2021  0.5166  (u',v')
2  (observer)

0 (CCT_NOT_APPLICABLE)
Spectral-Data
MEASURED
171 (data-points)
(nm)   w/sr*m2/nm

390    4.307e-006
392    2.479e-006
394    5.488e-006
396    1.559e-006
398    2.548e-006
400    1.885e-006
402    1.515e-006
404    4.087e-006
406    4.831e-006
408    1.811e-006
410    4.911e-006
412    6.098e-006
414    8.060e-006
416    1.806e-005
418    2.858e-005
420    4.307e-005
422    7.104e-005
424    1.021e-004
426    1.278e-004
428    1.356e-004
430    1.393e-004
432    1.521e-004
434    2.084e-004
436    2.745e-004
438    2.624e-004
440    1.887e-004
442    1.610e-004
444    1.680e-004
446    1.874e-004
448    2.027e-004
450    2.090e-004
452    2.140e-004
454    2.280e-004
456    2.386e-004
458    2.423e-004
460    2.438e-004
462    2.563e-004
464    2.619e-004
466    2.559e-004
468    2.467e-004
470    2.430e-004
472    2.395e-004
474    2.324e-004
476    2.214e-004
478    2.119e-004
480    2.013e-004
482    1.905e-004
484    1.841e-004
486    1.859e-004
488    2.019e-004
490    2.063e-004
492    1.832e-004
494    1.545e-004
496    1.215e-004
498    8.711e-005
500    6.389e-005
502    4.924e-005
504    4.113e-005
506    3.762e-005
508    3.675e-005
510    4.328e-005
512    5.809e-005
514    8.506e-005
516    1.185e-004
518    1.679e-004
520    2.245e-004
522    2.746e-004
524    3.429e-004
526    4.168e-004
528    4.702e-004
530    5.013e-004
532    5.108e-004
534    5.085e-004
536    5.007e-004
538    5.005e-004
540    5.247e-004
542    6.055e-004
544    8.979e-004
546    1.270e-003
548    1.267e-003
550    8.691e-004
552    5.713e-004
554    4.694e-004
556    4.246e-004
558    3.988e-004
560    3.986e-004
562    4.082e-004
564    4.093e-004
566    3.984e-004
568    3.674e-004
570    3.204e-004
572    2.822e-004
574    2.591e-004
576    2.559e-004
578    2.423e-004
580    1.937e-004
582    1.455e-004
584    1.285e-004
586    1.369e-004
588    1.567e-004
590    1.730e-004
592    1.949e-004
594    2.216e-004
596    2.549e-004
598    2.912e-004
600    3.063e-004
602    2.894e-004
604    2.713e-004
606    2.885e-004
608    3.111e-004
610    3.173e-004
612    3.189e-004
614    3.437e-004
616    3.843e-004
618    3.995e-004
620    4.141e-004
622    4.490e-004
624    4.925e-004
626    4.988e-004
628    4.868e-004
630    4.740e-004
632    4.560e-004
634    4.276e-004
636    4.259e-004
638    4.355e-004
640    4.386e-004
642    4.290e-004
644    4.230e-004
646    4.233e-004
648    4.256e-004
650    3.916e-004
652    3.413e-004
654    3.261e-004
656    3.553e-004
658    3.748e-004
660    3.787e-004
662    3.670e-004
664    3.691e-004
666    3.703e-004
668    3.386e-004
670    3.036e-004
672    3.052e-004
674    3.097e-004
676    2.783e-004
678    2.417e-004
680    2.114e-004
682    2.140e-004
684    2.200e-004
686    2.016e-004
688    1.695e-004
690    1.452e-004
692    1.319e-004
694    1.228e-004
696    1.195e-004
698    1.188e-004
700    1.073e-004
702    7.987e-005
704    5.677e-005
706    4.762e-005
708    3.794e-005
710    3.285e-005
712    2.682e-005
714    3.194e-005
716    2.887e-005
718    1.925e-005
720    2.015e-005
722    2.195e-005
724    1.672e-005
726    2.143e-005
728    2.153e-005
730    1.734e-005

