0
6.637e-002   watts/ster*m2 .    
1.918e+017   photons/ster*m2*sec .    

Photometric-Data
0
6.222e+000  fL .    
2.132e+001  Cd/m2 .    

Colorimetric-Data
1.897e+001  2.132e+001  1.062e+001  (X,Y,Z)
0.3726  0.4188  0.2086  (x,y,z)
0.2047  0.3451  (u,v)
0.2047  0.5177  (u',v')
2  (observer)

0 (CCT_NOT_APPLICABLE)
Spectral-Data
MEASURED
171 (data-points)
(nm)   w/sr*m2/nm

390    1.218e-006
392    2.816e-006
394    2.283e-006
396    3.203e-006
398    1.956e-006
400    1.077e-006
402    2.680e-006
404    3.867e-006
406    4.712e-006
408    2.394e-006
410    3.710e-006
412    5.349e-006
414    9.556e-006
416    1.485e-005
418    2.278e-005
420    3.335e-005
422    5.429e-005
424    7.517e-005
426    9.405e-005
428    9.844e-005
430    1.041e-004
432    1.181e-004
434    1.720e-004
436    2.131e-004
438    1.849e-004
440    1.361e-004
442    1.205e-004
444    1.267e-004
446    1.405e-004
448    1.508e-004
450    1.554e-004
452    1.592e-004
454    1.693e-004
456    1.765e-004
458    1.781e-004
460    1.807e-004
462    1.902e-004
464    1.951e-004
466    1.919e-004
468    1.873e-004
470    1.877e-004
472    1.875e-004
474    1.833e-004
476    1.759e-004
478    1.686e-004
480    1.603e-004
482    1.503e-004
484    1.437e-004
486    1.447e-004
488    1.546e-004
490    1.566e-004
492    1.381e-004
494    1.157e-004
496    9.123e-005
498    6.574e-005
500    4.803e-005
502    3.558e-005
504    3.090e-005
506    2.754e-005
508    2.949e-005
510    3.351e-005
512    4.237e-005
514    5.895e-005
516    8.129e-005
518    1.173e-004
520    1.582e-004
522    1.978e-004
524    2.508e-004
526    3.063e-004
528    3.468e-004
530    3.722e-004
532    3.808e-004
534    3.823e-004
536    3.779e-004
538    3.806e-004
540    4.015e-004
542    4.838e-004
544    7.745e-004
546    1.052e-003
548    9.346e-004
550    6.219e-004
552    4.241e-004
554    3.562e-004
556    3.243e-004
558    3.082e-004
560    3.085e-004
562    3.166e-004
564    3.180e-004
566    3.117e-004
568    2.897e-004
570    2.559e-004
572    2.319e-004
574    2.243e-004
576    2.267e-004
578    2.049e-004
580    1.566e-004
582    1.178e-004
584    1.094e-004
586    1.164e-004
588    1.320e-004
590    1.449e-004
592    1.603e-004
594    1.795e-004
596    2.048e-004
598    2.312e-004
600    2.412e-004
602    2.293e-004
604    2.166e-004
606    2.312e-004
608    2.510e-004
610    2.549e-004
612    2.555e-004
614    2.772e-004
616    3.071e-004
618    3.147e-004
620    3.277e-004
622    3.521e-004
624    3.822e-004
626    3.835e-004
628    3.745e-004
630    3.676e-004
632    3.547e-004
634    3.319e-004
636    3.331e-004
638    3.400e-004
640    3.421e-004
642    3.354e-004
644    3.345e-004
646    3.315e-004
648    3.344e-004
650    3.070e-004
652    2.716e-004
654    2.619e-004
656    2.874e-004
658    2.981e-004
660    3.018e-004
662    2.950e-004
664    2.980e-004
666    2.975e-004
668    2.695e-004
670    2.474e-004
672    2.501e-004
674    2.513e-004
676    2.238e-004
678    1.952e-004
680    1.723e-004
682    1.711e-004
684    1.777e-004
686    1.620e-004
688    1.389e-004
690    1.199e-004
692    1.079e-004
694    9.985e-005
696    1.053e-004
698    1.001e-004
700    8.889e-005
702    6.742e-005
704    5.191e-005
706    4.231e-005
708    3.069e-005
710    3.122e-005
712    2.432e-005
714    2.253e-005
716    2.022e-005
718    1.592e-005
720    1.686e-005
722    1.370e-005
724    1.590e-005
726    1.217e-005
728    1.287e-005
730    1.080e-005

