0
8.470e-002   watts/ster*m2 .    
2.441e+017   photons/ster*m2*sec .    

Photometric-Data
0
7.956e+000  fL .    
2.726e+001  Cd/m2 .    

Colorimetric-Data
2.402e+001  2.726e+001  1.402e+001  (X,Y,Z)
0.3678  0.4175  0.2147  (x,y,z)
0.2023  0.3444  (u,v)
0.2023  0.5165  (u',v')
2  (observer)

0 (CCT_NOT_APPLICABLE)
Spectral-Data
MEASURED
171 (data-points)
(nm)   w/sr*m2/nm

390    2.812e-006
392    3.337e-006
394    4.648e-006
396    1.521e-006
398    1.477e-006
400    2.215e-006
402    2.188e-006
404    1.859e-006
406    3.594e-006
408    3.857e-006
410    4.370e-006
412    5.823e-006
414    9.881e-006
416    1.881e-005
418    3.043e-005
420    4.540e-005
422    7.296e-005
424    1.012e-004
426    1.275e-004
428    1.345e-004
430    1.390e-004
432    1.530e-004
434    2.094e-004
436    2.775e-004
438    2.643e-004
440    1.896e-004
442    1.615e-004
444    1.672e-004
446    1.867e-004
448    2.026e-004
450    2.081e-004
452    2.133e-004
454    2.264e-004
456    2.376e-004
458    2.401e-004
460    2.421e-004
462    2.530e-004
464    2.593e-004
466    2.530e-004
468    2.443e-004
470    2.426e-004
472    2.378e-004
474    2.301e-004
476    2.206e-004
478    2.107e-004
480    2.003e-004
482    1.879e-004
484    1.817e-004
486    1.850e-004
488    1.996e-004
490    2.041e-004
492    1.811e-004
494    1.511e-004
496    1.195e-004
498    8.614e-005
500    6.258e-005
502    4.648e-005
504    3.937e-005
506    3.589e-005
508    3.637e-005
510    4.423e-005
512    5.813e-005
514    8.589e-005
516    1.204e-004
518    1.700e-004
520    2.249e-004
522    2.754e-004
524    3.434e-004
526    4.148e-004
528    4.666e-004
530    4.974e-004
532    5.056e-004
534    5.039e-004
536    4.975e-004
538    4.987e-004
540    5.223e-004
542    6.030e-004
544    8.986e-004
546    1.273e-003
548    1.270e-003
550    8.697e-004
552    5.697e-004
554    4.670e-004
556    4.215e-004
558    3.966e-004
560    3.954e-004
562    4.049e-004
564    4.071e-004
566    3.952e-004
568    3.630e-004
570    3.130e-004
572    2.755e-004
574    2.532e-004
576    2.526e-004
578    2.404e-004
580    1.925e-004
582    1.461e-004
584    1.304e-004
586    1.382e-004
588    1.561e-004
590    1.755e-004
592    1.966e-004
594    2.221e-004
596    2.559e-004
598    2.916e-004
600    3.038e-004
602    2.888e-004
604    2.706e-004
606    2.866e-004
608    3.118e-004
610    3.185e-004
612    3.171e-004
614    3.416e-004
616    3.863e-004
618    3.999e-004
620    4.157e-004
622    4.479e-004
624    4.930e-004
626    4.977e-004
628    4.855e-004
630    4.720e-004
632    4.573e-004
634    4.237e-004
636    4.237e-004
638    4.354e-004
640    4.370e-004
642    4.278e-004
644    4.236e-004
646    4.185e-004
648    4.226e-004
650    3.900e-004
652    3.392e-004
654    3.228e-004
656    3.548e-004
658    3.732e-004
660    3.770e-004
662    3.648e-004
664    3.683e-004
666    3.664e-004
668    3.344e-004
670    3.008e-004
672    3.064e-004
674    3.072e-004
676    2.780e-004
678    2.428e-004
680    2.107e-004
682    2.151e-004
684    2.221e-004
686    1.995e-004
688    1.691e-004
690    1.466e-004
692    1.317e-004
694    1.201e-004
696    1.228e-004
698    1.196e-004
700    1.060e-004
702    8.129e-005
704    5.864e-005
706    4.839e-005
708    3.805e-005
710    3.215e-005
712    3.025e-005
714    2.783e-005
716    2.719e-005
718    3.049e-005
720    2.110e-005
722    2.090e-005
724    1.895e-005
726    1.323e-005
728    1.598e-005
730    2.021e-005

