0
1.842e-001   watts/ster*m2 .    
5.217e+017   photons/ster*m2*sec .    

Photometric-Data
0
1.758e+001  fL .    
6.023e+001  Cd/m2 .    

Colorimetric-Data
5.024e+001  6.023e+001  3.761e+001  (X,Y,Z)
0.3393  0.4067  0.2540  (x,y,z)
0.1884  0.3388  (u,v)
0.1884  0.5083  (u',v')
2  (observer)

0 (CCT_NOT_APPLICABLE)
Spectral-Data
MEASURED
171 (data-points)
(nm)   w/sr*m2/nm

390    9.375e-006
392    3.485e-006
394    7.426e-006
396    1.236e-005
398    7.549e-006
400    1.244e-005
402    1.108e-005
404    3.988e-006
406    1.134e-005
408    9.348e-006
410    9.167e-006
412    1.490e-005
414    2.413e-005
416    4.656e-005
418    7.363e-005
420    1.234e-004
422    1.916e-004
424    2.670e-004
426    3.299e-004
428    3.472e-004
430    3.593e-004
432    3.962e-004
434    5.465e-004
436    7.177e-004
438    6.834e-004
440    5.024e-004
442    4.274e-004
444    4.447e-004
446    5.026e-004
448    5.429e-004
450    5.619e-004
452    5.787e-004
454    6.230e-004
456    6.611e-004
458    6.702e-004
460    6.718e-004
462    7.019e-004
464    7.178e-004
466    6.998e-004
468    6.765e-004
470    6.668e-004
472    6.543e-004
474    6.276e-004
476    5.975e-004
478    5.698e-004
480    5.446e-004
482    5.143e-004
484    4.990e-004
486    5.055e-004
488    5.476e-004
490    5.570e-004
492    4.858e-004
494    3.984e-004
496    3.035e-004
498    2.086e-004
500    1.424e-004
502    9.715e-005
504    8.006e-005
506    6.947e-005
508    7.087e-005
510    8.801e-005
512    1.273e-004
514    1.929e-004
516    2.767e-004
518    3.966e-004
520    5.254e-004
522    6.392e-004
524    7.965e-004
526    9.608e-004
528    1.079e-003
530    1.152e-003
532    1.169e-003
534    1.162e-003
536    1.136e-003
538    1.134e-003
540    1.197e-003
542    1.405e-003
544    2.110e-003
546    2.973e-003
548    2.936e-003
550    2.014e-003
552    1.325e-003
554    1.075e-003
556    9.697e-004
558    9.157e-004
560    9.195e-004
562    9.436e-004
564    9.516e-004
566    9.194e-004
568    8.405e-004
570    7.227e-004
572    6.284e-004
574    5.741e-004
576    5.548e-004
578    5.130e-004
580    3.979e-004
582    2.835e-004
584    2.447e-004
586    2.580e-004
588    2.908e-004
590    3.233e-004
592    3.610e-004
594    4.076e-004
596    4.694e-004
598    5.362e-004
600    5.622e-004
602    5.306e-004
604    4.956e-004
606    5.267e-004
608    5.717e-004
610    5.811e-004
612    5.825e-004
614    6.358e-004
616    7.136e-004
618    7.395e-004
620    7.725e-004
622    8.305e-004
624    9.147e-004
626    9.250e-004
628    9.002e-004
630    8.723e-004
632    8.422e-004
634    7.804e-004
636    7.818e-004
638    8.036e-004
640    8.114e-004
642    7.951e-004
644    7.924e-004
646    7.840e-004
648    7.824e-004
650    7.203e-004
652    6.262e-004
654    6.089e-004
656    6.621e-004
658    7.025e-004
660    7.065e-004
662    6.870e-004
664    6.896e-004
666    6.857e-004
668    6.331e-004
670    5.724e-004
672    5.827e-004
674    5.786e-004
676    5.129e-004
678    4.500e-004
680    4.017e-004
682    4.079e-004
684    4.220e-004
686    3.847e-004
688    3.124e-004
690    2.602e-004
692    2.361e-004
694    2.264e-004
696    2.289e-004
698    2.345e-004
700    2.002e-004
702    1.518e-004
704    1.041e-004
706    9.092e-005
708    7.292e-005
710    6.397e-005
712    4.913e-005
714    3.984e-005
716    3.921e-005
718    2.025e-005
720    3.442e-005
722    3.766e-005
724    3.132e-005
726    3.351e-005
728    2.187e-005
730    1.104e-005

