0
1.402e-001   watts/ster*m2 .    
3.989e+017   photons/ster*m2*sec .    

Photometric-Data
0
1.332e+001  fL .    
4.564e+001  Cd/m2 .    

Colorimetric-Data
3.857e+001  4.564e+001  2.743e+001  (X,Y,Z)
0.3455  0.4088  0.2457  (x,y,z)
0.1915  0.3400  (u,v)
0.1915  0.5100  (u',v')
2  (observer)

0 (CCT_NOT_APPLICABLE)
Spectral-Data
MEASURED
171 (data-points)
(nm)   w/sr*m2/nm

390    3.790e-006
392    9.302e-006
394    5.111e-006
396    1.970e-006
398    1.776e-006
400    5.222e-006
402    4.766e-006
404    6.196e-006
406    3.879e-006
408    8.856e-006
410    9.633e-006
412    1.420e-005
414    2.058e-005
416    3.837e-005
418    5.964e-005
420    8.667e-005
422    1.326e-004
424    1.888e-004
426    2.337e-004
428    2.470e-004
430    2.580e-004
432    2.930e-004
434    4.323e-004
436    5.410e-004
438    4.686e-004
440    3.464e-004
442    3.044e-004
444    3.205e-004
446    3.588e-004
448    3.885e-004
450    4.018e-004
452    4.169e-004
454    4.481e-004
456    4.710e-004
458    4.742e-004
460    4.764e-004
462    5.011e-004
464    5.165e-004
466    5.130e-004
468    5.021e-004
470    5.011e-004
472    4.979e-004
474    4.822e-004
476    4.620e-004
478    4.421e-004
480    4.198e-004
482    3.935e-004
484    3.773e-004
486    3.820e-004
488    4.072e-004
490    4.134e-004
492    3.592e-004
494    2.995e-004
496    2.320e-004
498    1.571e-004
500    1.088e-004
502    7.523e-005
504    5.939e-005
506    5.278e-005
508    5.532e-005
510    6.618e-005
512    8.585e-005
514    1.264e-004
516    1.800e-004
518    2.603e-004
520    3.525e-004
522    4.385e-004
524    5.579e-004
526    6.806e-004
528    7.665e-004
530    8.233e-004
532    8.400e-004
534    8.438e-004
536    8.340e-004
538    8.379e-004
540    8.873e-004
542    1.085e-003
544    1.772e-003
546    2.402e-003
548    2.112e-003
550    1.400e-003
552    9.505e-004
554    7.924e-004
556    7.221e-004
558    6.842e-004
560    6.890e-004
562    7.099e-004
564    7.146e-004
566    6.985e-004
568    6.452e-004
570    5.681e-004
572    5.136e-004
574    5.009e-004
576    4.958e-004
578    4.371e-004
580    3.197e-004
582    2.277e-004
584    2.007e-004
586    2.109e-004
588    2.367e-004
590    2.625e-004
592    2.904e-004
594    3.247e-004
596    3.694e-004
598    4.156e-004
600    4.342e-004
602    4.124e-004
604    3.894e-004
606    4.178e-004
608    4.478e-004
610    4.561e-004
612    4.571e-004
614    5.001e-004
616    5.538e-004
618    5.695e-004
620    5.927e-004
622    6.404e-004
624    6.962e-004
626    7.005e-004
628    6.778e-004
630    6.658e-004
632    6.441e-004
634    6.017e-004
636    6.054e-004
638    6.212e-004
640    6.258e-004
642    6.141e-004
644    6.108e-004
646    6.075e-004
648    6.086e-004
650    5.592e-004
652    4.953e-004
654    4.801e-004
656    5.257e-004
658    5.558e-004
660    5.592e-004
662    5.457e-004
664    5.535e-004
666    5.560e-004
668    4.971e-004
670    4.618e-004
672    4.702e-004
674    4.665e-004
676    4.156e-004
678    3.597e-004
680    3.206e-004
682    3.227e-004
684    3.322e-004
686    3.009e-004
688    2.569e-004
690    2.197e-004
692    1.995e-004
694    1.861e-004
696    1.924e-004
698    1.904e-004
700    1.657e-004
702    1.279e-004
704    9.237e-005
706    8.589e-005
708    5.859e-005
710    6.002e-005
712    5.679e-005
714    4.720e-005
716    2.670e-005
718    2.739e-005
720    2.772e-005
722    3.682e-005
724    3.960e-005
726    1.974e-005
728    1.958e-005
730    1.744e-005

